<?xml version="1.0" encoding="UTF-8" ?>

<Bundle xmlns="http://hl7.org/fhir" xmlns:xsi="http://www.w3.org/2001/XMLSchema-instance" xsi:schemaLocation="http://hl7.org/fhir ../../schema/Bundle.xsd">
  <id value="920a46b7-045a-4773-82bd-8e90c3e15653"/>
  <type value="subscription-notification"/>
  <timestamp value="2020-04-17T10:24:13.1882432-05:00"/>
  <entry>
    <fullUrl value="urn:uuid:dae6bdbc-71ab-4043-b11e-59b52bda60ad"/>
    <resource>
      <SubscriptionStatus xmlns="http://hl7.org/fhir" xmlns:xsi="http://www.w3.org/2001/XMLSchema-instance" xsi:schemaLocation="http://hl7.org/fhir ../../schema/SubscriptionStatus.xsd">
        <id value="dae6bdbc-71ab-4043-b11e-59b52bda60ad"/>
        <status value="active"/>
        <type value="event-notification"/>
        <eventsSinceSubscriptionStart value="2"/>
        <notificationEvent>
          <eventNumber value="2"/>
          <focus>
            <reference value="http://example.org/FHIR/R5/Encounter/2"/>
          </focus>
          <additionalContext>
            <reference value="http://example.org/FHIR/R5/Patient/ABC"/>
          </additionalContext>
        </notificationEvent>
        <subscription>
          <reference value="http://example.org/FHIR/R5/Subscription/123"/>
        </subscription>
        <topic value="http://example.org/FHIR/R5/SubscriptionTopic/admission"/>
      </SubscriptionStatus>
    </resource>
  </entry>
  <entry>
    <fullUrl value="http://example.org/FHIR/R5/Encounter/2" />
    <request>
      <method value="PUT" />
      <url value="Encounter/2" />
    </request>
    <response>
      <status value="201"/>
    </response>
  </entry>
  <entry>
    <fullUrl value="http://example.org/FHIR/R5/Patient/ABC" />
    <request>
      <method value="GET" />
      <url value="Patient/ABC" />
    </request>
    <response>
      <status value="200"/>
    </response>
  </entry>
</Bundle>
